Folder: lab-project

Note: README.md
# lab-project
This repository has tools that I use in lab to make my life easier.

File: xrd.txt
Sample	ANC IV
Comments
Filename	C:\Users\SR\Desktop\KV257~1.18\ANCIV_~1.ASC
Goniometer	MiniFlex 300/600 +
Attachment	Standard Sample Holder
Monochromater	None
10	1218.33
10.28	1136.67
10.56	1183.33
10.84	1040
11.12	1143.33
11.4	1063.33
11.68	1110
11.96	1060
12.24	1065
12.52	1063.33
12.8	1003.33
13.08	1031.67
13.36	998.333
13.64	1020
13.92	955
14.2	903.333
14.48	1000
14.76	876.667
15.04	846.667
15.32	880
15.6	861.667
15.88	828.333
16.16	851.667
16.44	790
16.72	778.333
17	866.667
17.28	766.667
17.56	830
17.84	780
18.12	760
18.4	771.667
18.68	770
18.96	770
19.24	771.667
19.52	861.667
19.8	706.667
20.08	788.333
20.36	756.667
20.64	736.667
20.92	726.667
21.2	765
21.48	770
21.76	800
22.04	858.333
22.32	826.667
22.6	783.333
22.88	756.667
23.16	760
23.44	815
23.72	1198.33
24	1738.33
24.28	1735
24.56	811.667
24.84	810
25.12	778.333
25.4	820
25.68	778.333
25.96	795
26.24	800
26.52	755
26.8	741.667
27.08	780
27.36	855
27.64	1161.67
27.92	993.333
28.2	841.667
28.48	823.333
28.76	856.667
29.04	860
29.32	831.667
29.6	870
29.88	861.667
30.16	938.333
30.44	885
30.72	940
31	1163.33
31.28	1680
31.56	1816.67
31.84	1298.33
32.12	943.333
32.4	948.333
32.68	876.667
32.96	1076.67
33.24	906.667
33.52	890
33.8	1023.33
34.08	1343.33
34.36	1141.67
34.64	1241.67
34.92	791.667
35.2	861.667
35.48	818.333
35.76	798.333
36.04	768.333
36.32	843.333
36.6	830
36.88	813.333
37.16	776.667
37.44	725
37.72	796.667
38	770
38.28	766.667
38.56	841.667
38.84	928.333
39.12	908.333
39.4	808.333
39.68	816.667
39.96	795
40.24	855
40.52	866.667
40.8	798.333
41.08	785
41.36	746.667
41.64	768.333
41.92	1026.67
42.2	895
42.48	796.667
42.76	786.667
43.04	900
43.32	756.667
43.6	803.333
43.88	763.333
44.16	958.333
44.44	860
44.72	980
45	1213.33
45.28	923.333
45.56	895
45.84	785
46.12	801.667
46.4	838.333
46.68	968.333
46.96	1026.67
47.24	898.333
47.52	818.333
47.8	730
48.08	775
48.36	725
48.64	741.667
48.92	786.667
49.2	696.667
49.48	683.333
49.76	738.333
50.04	753.333
50.32	761.667
50.6	813.333
50.88	753.333
51.16	731.667
51.44	643.333
51.72	693.333
52	688.333
52.28	698.333
52.56	686.667
52.84	705
53.12	731.667
53.4	745
53.68	776.667
53.96	735
54.24	808.333
54.52	755
54.8	820
55.08	798.333
55.36	765
55.64	936.667
55.92	960
56.2	993.333
56.48	960
56.76	780
57.04	873.333
57.32	760
57.6	733.333
57.88	766.667
58.16	720
58.44	745
58.72	728.333
59	788.333
59.28	841.667
59.56	738.333
59.84	746.667
60.12	711.667
60.4	743.333
60.68	746.667
60.96	781.667
61.24	826.667
61.52	796.667
61.8	785
62.08	811.667
62.36	751.667
62.64	813.333
62.92	798.333
63.2	746.667
63.48	713.333
63.76	720
64.04	743.333
64.32	726.667
64.6	663.333
64.88	735
65.16	800
65.44	801.667
65.72	783.333
66	753.333
66.28	743.333
66.56	728.333
66.84	743.333
67.12	775
67.4	716.667
67.68	733.333
67.96	751.667
68.24	810
68.52	795
68.8	771.667
69.08	748.333
69.36	773.333
69.64	798.333
69.92	731.667
70.2	753.333
70.48	745
70.76	795
71.04	800
71.32	738.333
71.6	760
71.88	745
72.16	753.333
72.44	678.333
72.72	698.333
73	738.333
73.28	718.333
73.56	726.667
73.84	746.667
74.12	711.667
74.4	731.667
74.68	795
74.96	726.667
75.24	785
75.52	750
75.8	691.667
76.08	760
76.36	746.667
76.64	686.667
76.92	811.667
77.2	801.667
77.48	678.333
77.76	735
78.04	703.333
78.32	760
78.6	726.667
78.88	808.333
79.16	733.333
79.44	755
79.72	761.667
80	695
80.28	655
80.56	748.333
80.84	671.667
81.12	680
81.4	705
81.68	735
81.96	720
82.24	685
82.52	710
82.8	733.333
83.08	730
83.36	695
83.64	725
83.92	733.333
84.2	685
84.48	710
84.76	663.333
85.04	690
85.32	653.333
85.6	675
85.88	653.333
86.16	673.333
86.44	730
86.72	731.667
87	735
87.28	720
87.56	730
87.84	703.333
88.12	760
88.4	771.667
88.68	736.667
88.96	725
89.24	688.333
89.52	703.333
89.8	746.667
90	680